Folder: presentation_calocem/data (part 2)

File: JAA_CAL348.csv
Summary
Name,"JAA_CAL348.rslt"
Start time,2023 Jun 06 - 12:10
End time,2023 Jun 13 - 12:50
Operator,"JAA"
Results file path,"C:\Users\ge65ley\Desktop\Calorimetry_Results\AXD\Results_files\JAA_CAL348.rslt"
General Experiment Info
Bath temperature,20Â°C
,Sample - 25336:4
Total mass,6g
Name,"JAA_CAL348"
,Component - OPC
Mass,4g
Name,"OPC"
ID,"Karlstadt CEM I 52.5N 12.10.21"

"Time","Temperature [AmbientT(Therm3T)]","Temperature [Temperature]","Heat flow [Signal]","Heat [Signal]","Normalized heat flow [Signal]","Normalized heat [Signal]","Time markers"
-4285.73,25.6464,19.9998,NaN,NaN,NaN,NaN,""
-4285.53,25.6464,19.9998,1.05731e-06,NaN,2.64327e-07,NaN,""
-4263.75,25.6488,19.9998,9.92424e-07,NaN,2.48106e-07,NaN,""
-4248.44,25.6504,19.9998,9.68794e-07,NaN,2.42199e-07,NaN,""
-4231.55,25.6523,19.9998,9.75767e-07,NaN,2.43942e-07,NaN,""
-4202.47,25.6555,19.9999,4.44484e-07,NaN,1.11121e-07,NaN,""
-4175.37,25.6584,19.9999,2.91408e-07,NaN,7.2852e-08,NaN,""
-4154.48,25.6607,19.9999,5.97078e-07,NaN,1.4927e-07,NaN,""
-4141.79,25.6621,20.0001,6.57323e-07,NaN,1.64331e-07,NaN,""
-4116.23,25.6649,20.0005,6.40791e-07,NaN,1.60198e-07,NaN,""
-4113.24,25.6652,20.0004,6.38856e-07,NaN,1.59714e-07,NaN,""
-4097.39,25.6556,19.9998,6.28608e-07,NaN,1.57152e-07,NaN,""
-4047.56,25.6253,19.9998,5.96381e-07,NaN,1.49095e-07,NaN,""
-4033.93,25.617,19.9998,4.35427e-07,NaN,1.08857e-07,NaN,""
-4031.96,25.6158,19.9998,4.1209e-07,NaN,1.03022e-07,NaN,""
-4018.94,25.7506,19.9998,2.9221e-07,NaN,7.30524e-08,NaN,""
-4008.3,25.8606,19.9997,4.29542e-07,NaN,1.07385e-07,NaN,""
-4002.57,25.8711,19.9997,3.33652e-07,NaN,8.3413e-08,NaN,""
-3996.84,25.8467,19.9997,2.37763e-07,NaN,5.94407e-08,NaN,""
-3967.36,25.7213,19.9996,1.43748e-07,NaN,3.59369e-08,NaN,""
-3952.35,25.7197,19.9997,3.0387e-08,NaN,7.59676e-09,NaN,""
-3935.97,25.7513,19.9999,-9.59874e-08,NaN,-2.39968e-08,NaN,""
-3928.62,25.7655,19.9999,2.96947e-08,NaN,7.42367e-09,NaN,""
-3901.88,25.817,20.0001,-9.20057e-08,NaN,-2.30014e-08,NaN,""
-3887.44,25.8289,20.0001,-8.83416e-08,NaN,-2.20854e-08,NaN,""
-3850.16,25.7465,20.0001,-4.80079e-08,NaN,-1.2002e-08,NaN,""
-3841.68,25.7278,20.0001,-2.05427e-07,NaN,-5.13568e-08,NaN,""
-3837.14,25.7296,20.0001,-2.02922e-07,NaN,-5.07305e-08,NaN,""
-3781.92,25.7516,20,-1.69627e-08,NaN,-4.24068e-09,NaN,""
-3758.89,25.7774,20,-3.49052e-08,NaN,-8.72631e-09,NaN,""
-3735.87,25.8394,20.0001,-5.28477e-08,NaN,-1.32119e-08,NaN,""
-3714.45,25.8951,20.0001,-1.11987e-07,NaN,-2.79968e-08,NaN,""
-3693.03,25.8704,20.0002,-1.71126e-07,NaN,-4.27816e-08,NaN,""
-3687.16,25.8636,20.0002,-2.19405e-09,NaN,-5.48513e-10,NaN,""
-3663.5,25.8363,20.0003,-1.6198e-07,NaN,-4.04949e-08,NaN,""
-3648.65,25.8192,20.0002,-2.16529e-07,NaN,-5.41323e-08,NaN,""
-3614.03,25.7792,20.0001,-2.70696e-07,NaN,-6.76741e-08,NaN,""
-3607.3,25.7715,20.0001,-1.10827e-07,NaN,-2.77068e-08,NaN,""
-3601.98,25.7677,20.0001,-2.01877e-07,NaN,-5.04691e-08,NaN,""
-3596.66,25.7657,20,-2.92926e-07,NaN,-7.32315e-08,NaN,""
-3562.98,25.7531,19.9999,-6.79755e-08,NaN,-1.69939e-08,NaN,""
-3546.66,25.747,19.9999,-2.24335e-07,NaN,-5.60837e-08,NaN,""
-3514.9,25.7351,19.9998,2.19814e-07,NaN,5.49534e-08,NaN,""
-3491.3,25.7263,19.9997,5.11446e-09,NaN,1.27861e-09,NaN,""
-3472.5,25.7192,19.9996,-2.33475e-07,NaN,-5.83688e-08,NaN,""
-3448.93,25.7104,19.9996,-2.16286e-07,NaN,-5.40715e-08,NaN,""
-3445.5,25.7091,19.9996,-1.96438e-07,NaN,-4.91096e-08,NaN,""
-3423.54,25.7009,19.9998,-6.94121e-08,NaN,-1.7353e-08,NaN,""
-3403.7,25.6934,20,-1.90175e-07,NaN,-4.75438e-08,NaN,""
-3358.5,25.6765,19.9999,-4.65285e-07,NaN,-1.16321e-07,NaN,""
-3333.36,25.6671,19.9998,-5.76091e-07,NaN,-1.44023e-07,NaN,""
-3324.37,25.7198,19.9998,-6.15697e-07,NaN,-1.53924e-07,NaN,""
-3315.39,25.7725,19.9997,-6.55303e-07,NaN,-1.63826e-07,NaN,""
-3302.22,25.6655,19.9997,-7.13336e-07,NaN,-1.78334e-07,NaN,""
-3291.91,25.6217,19.9996,-6.20401e-07,NaN,-1.551e-07,NaN,""
-3269.48,25.7532,19.9995,-4.18182e-07,NaN,-1.04545e-07,NaN,""
-3255.5,25.7708,19.9994,-2.79782e-07,NaN,-6.99456e-08,NaN,""
-3240.77,25.7734,19.9995,-1.34021e-07,NaN,-3.35053e-08,NaN,""
-3240.03,25.7735,19.9995,-1.26659e-07,NaN,-3.16648e-08,NaN,""
-3227.17,25.7758,19.9996,-2.52451e-07,NaN,-6.31128e-08,NaN,""
-3210.52,25.7787,19.9998,-9.78704e-09,NaN,-2.44676e-09,NaN,""
-3196.17,25.7812,20,-9.08108e-08,NaN,-2.27027e-08,NaN,""
-3190.03,25.7823,20,-1.25483e-07,NaN,-3.13707e-08,NaN,""
-3188.1,25.7826,20,-5.69496e-08,NaN,-1.42374e-08,NaN,""
-3186.48,25.7816,20,-1.08953e-08,NaN,-2.72381e-09,NaN,""
-3138.11,25.7525,20,-1.49017e-07,NaN,-3.72543e-08,NaN,""
-3096.59,25.7274,20,3.06939e-08,NaN,7.67348e-09,NaN,""
-3065.44,25.7086,20,-1.17725e-07,NaN,-2.94311e-08,NaN,""
-3039.24,25.6964,20,-1.3016e-07,NaN,-3.254e-08,NaN,""
-3016.44,25.6967,20,2.79663e-07,NaN,6.99158e-08,NaN,""
-2967.85,25.6975,20,1.7851e-07,NaN,4.46274e-08,NaN,""
-2938.22,25.698,20,-1.45143e-07,NaN,-3.62858e-08,NaN,""
-2914.54,25.6983,20,5.74555e-08,NaN,1.43639e-08,NaN,""
-2904.71,25.6985,20,-1.03982e-08,NaN,-2.59955e-09,NaN,""
-2893.33,25.6987,19.9999,-8.89238e-08,NaN,-2.22309e-08,NaN,""
-2870.7,25.6758,19.9996,-2.45082e-07,NaN,-6.12706e-08,NaN,""
-2856.02,25.661,19.9994,9.23404e-08,NaN,2.30851e-08,NaN,""
-2844.84,25.6498,19.9994,2.41541e-07,NaN,6.03854e-08,NaN,""
-2824.65,25.6687,19.9995,8.37906e-08,NaN,2.09476e-08,NaN,""
-2804.46,25.7348,19.9996,-7.74217e-08,NaN,-1.93554e-08,NaN,""
-2779.03,25.818,19.9997,-3.01234e-07,NaN,-7.53085e-08,NaN,""
-2756.64,25.7415,19.9997,-4.55489e-07,NaN,-1.13872e-07,NaN,""
-2728.78,25.6464,19.9998,-5.18022e-07,NaN,-1.29506e-07,NaN,""
-2700.92,25.6931,19.9997,-5.35292e-07,NaN,-1.33823e-07,NaN,""
-2685.27,25.7387,19.9997,-3.09136e-07,NaN,-7.72841e-08,NaN,""
-2677.97,25.76,19.9997,-3.33473e-07,NaN,-8.33683e-08,NaN,""
-2670.8,25.7628,19.9996,-3.55346e-07,NaN,-8.88364e-08,NaN,""
-2652,25.77,19.9996,-1.12034e-07,NaN,-2.80085e-08,NaN,""
-2631.59,25.7778,19.9995,1.30557e-07,NaN,3.26393e-08,NaN,""
-2616.39,25.7836,19.9996,2.49886e-07,NaN,6.24715e-08,NaN,""
-2588.05,25.7944,19.9998,2.53613e-07,NaN,6.34032e-08,NaN,""
-2578.09,25.7983,19.9998,7.57157e-09,NaN,1.89289e-09,NaN,""
-2560.94,25.8048,19.9999,2.32194e-07,NaN,5.80486e-08,NaN,""
-2559.27,25.8055,19.9999,2.13657e-07,NaN,5.34142e-08,NaN,""
-2537.09,25.7444,20,-3.17255e-08,NaN,-7.93137e-09,NaN,""
-2514.92,25.6833,19.9999,-2.50997e-07,NaN,-6.27492e-08,NaN,""
-2491.28,25.7231,19.9998,-1.44155e-07,NaN,-3.60388e-08,NaN,""
-2486.53,25.734,19.9997,-1.22665e-07,NaN,-3.06662e-08,NaN,""
-2454.9,25.8071,19.9997,NaN,NaN,NaN,NaN,""
-2423.26,25.7032,19.9998,NaN,NaN,NaN,NaN,""
-2408.93,25.69,19.9999,NaN,NaN,NaN,NaN,""
-2371.42,25.6949,20,NaN,NaN,NaN,NaN,""
-2329.59,25.7086,20,NaN,NaN,NaN,NaN,""
-2280.79,25.7736,19.9999,NaN,NaN,NaN,NaN,""
-2255.2,25.7473,19.9999,NaN,NaN,NaN,NaN,""
-2229.61,25.721,19.9998,NaN,NaN,NaN,NaN,""
-2211.73,25.8817,19.9998,NaN,NaN,NaN,NaN,""
-2186.34,25.7313,19.9997,NaN,NaN,NaN,NaN,""
-2147.31,25.7266,19.9999,NaN,NaN,NaN,NaN,""
-2118.25,25.7231,20.0001,NaN,NaN,NaN,NaN,""
-2028.1,25.7122,19.9999,NaN,NaN,NaN,NaN,""
-1941.63,25.7064,19.9998,NaN,NaN,NaN,NaN,""
-1850.99,25.7003,19.9999,NaN,NaN,NaN,NaN,""
-1791.97,25.7415,20.0001,NaN,NaN,NaN,NaN,""
-1770.2,25.7567,20.0005,NaN,NaN,NaN,NaN,""
-1740.19,25.7776,19.9998,NaN,NaN,NaN,NaN,""
-1732.95,25.7827,19.9998,NaN,NaN,NaN,NaN,""
-1707.31,25.7041,19.9999,NaN,NaN,NaN,NaN,""
-1676.18,25.7684,20,NaN,NaN,NaN,NaN,""
[...]
371147,25.7092,19.9994,0.0010598,1285.82,0.00026495,321.454,""
376528,25.6067,19.9997,0.0010426,1291.47,0.000260649,322.868,""
380175,25.6313,19.9998,0.00103166,1295.25,0.000257916,323.814,""
384897,25.747,19.9993,0.0010156,1300.09,0.000253901,325.022,""
389393,25.7044,19.9998,0.00100071,1304.62,0.000250176,326.155,""
393862,25.672,19.9999,0.00098648,1309.06,0.00024662,327.265,""
399035,25.6924,19.9996,0.00097014,1314.12,0.000242535,328.53,""
405851,25.6481,19.9997,0.000948756,1320.66,0.000237189,330.165,""
410206,25.6913,19.9994,0.000935385,1324.76,0.000233846,331.191,""
413888,25.735,19.9997,0.000924433,1328.19,0.000231108,332.047,""
418962,25.592,19.9995,0.000908519,1332.84,0.00022713,333.209,""
423648,25.6318,20.0002,0.000894564,1337.06,0.000223641,334.265,""
427246,25.5778,20.0003,0.000883451,1340.26,0.000220863,335.065,""
431989,25.6738,20,0.000869186,1344.42,0.000217296,336.104,""
435773,25.521,19.9999,0.000858285,1347.69,0.000214571,336.921,""
439735,25.5507,20,0.000846166,1351.06,0.000211541,337.765,""
443366,25.6371,20.0001,0.000835632,1354.12,0.000208908,338.529,""
447305,25.6017,20,0.000824571,1357.38,0.000206143,339.346,""
451246,25.612,19.9998,0.000813868,1360.61,0.000203467,340.153,""
454579,25.6564,19.9999,0.000805015,1363.31,0.000201254,340.828,""
458604,25.6547,19.9999,0.000794736,1366.53,0.000198684,341.633,""
463450,25.6803,19.9996,0.00078274,1370.35,0.000195685,342.588,""
468493,25.5544,19.9998,0.000769916,1374.27,0.000192479,343.567,""
472643,25.6284,20.0001,0.00075995,1377.44,0.000189988,344.361,""
477386,25.6255,20.0001,0.00074912,1381.02,0.00018728,345.256,""
482875,25.6588,20,0.000735617,1385.1,0.000183904,346.274,""
487691,25.6301,19.9999,0.000723985,1388.61,0.000180996,347.153,""
491421,25.6754,19.9995,0.000715402,1391.3,0.000178851,347.825,""
495730,25.5619,19.9996,0.0007052,1394.36,0.0001763,348.59,""
499664,25.6726,19.9999,0.00069673,1397.12,0.000174183,349.279,""
503642,26.4922,20.0001,0.000687088,1399.87,0.000171772,349.967,""
507451,26.3932,19.9997,0.000679013,1402.47,0.000169753,350.618,""
511711,26.3502,20,0.000668755,1405.34,0.000167189,351.336,""
515717,26.4426,20.0005,0.000659756,1408,0.000164939,352.001,""
520074,26.441,20,0.000649602,1410.86,0.000162401,352.714,""
523920,26.3919,19.9997,0.000640853,1413.34,0.000160213,353.334,""
527451,26.428,20.0003,0.000633532,1415.59,0.000158383,353.897,""
530588,26.537,20,0.000626561,1417.56,0.00015664,354.391,""
535600,26.6206,19.9999,0.000616191,1420.68,0.000154048,355.169,""
539355,25.4231,19.9996,0.000608541,1422.98,0.000152135,355.744,""
543077,25.2893,19.9999,0.000601352,1425.23,0.000150338,356.307,""
547303,25.4558,20,0.000593421,1427.75,0.000148355,356.938,""
551492,25.4216,19.9999,0.000585982,1430.22,0.000146495,357.556,""
555645,25.0376,19.9998,0.000578211,1432.64,0.000144553,358.16,""
560814,25.0394,19.9998,0.000569318,1435.61,0.00014233,358.902,""
566349,24.9982,20,0.000559301,1438.73,0.000139825,359.682,""
570959,24.9695,20,0.000551269,1441.29,0.000137817,360.323,""
576539,24.9634,19.9998,0.000541094,1444.34,0.000135274,361.085,""
581028,24.9514,19.9994,0.000532912,1446.75,0.000133228,361.687,""
586061,25.8059,19.9995,0.000525081,1449.41,0.00013127,362.353,""
590201,25.8223,19.9999,0.00051743,1451.57,0.000129358,362.892,""
594088,25.8981,19.9998,0.000510719,1453.57,0.00012768,363.392,""
597687,25.927,19.9989,0.000504132,1455.39,0.000126033,363.849,""
601937,25.9163,19.9996,0.000496416,1457.52,0.000124104,364.38,""
602961,25.9682,19.9997,0.000494892,1458.03,0.000123723,364.507,""
602962,25.97,19.9997,NaN,NaN,NaN,NaN,"Ampoule removed"
602962,25.9721,19.9997,NaN,NaN,NaN,NaN,""

File: JAA_CAL349.csv
Summary
Name,"JAA_CAL349.rslt"
Start time,2023 Jun 06 - 12:14
End time,2023 Jun 13 - 12:52
Operator,"JAA"
Results file path,"C:\Users\ge65ley\Desktop\Calorimetry_Results\AXD\Results_files\JAA_CAL349.rslt"
General Experiment Info
Bath temperature,20Â°C
,Sample - 25336:5
Total mass,6g
Name,"JAA_CAL349"
,Component - OPC
Mass,4g
Name,"OPC"
ID,"Karlstadt CEM I 52.5N 12.10.21"

"Time","Temperature [AmbientT(Therm3T)]","Temperature [Temperature]","Heat flow [Signal]","Heat [Signal]","Normalized heat flow [Signal]","Normalized heat [Signal]","Time markers"
-4046.07,25.6019,19.9997,NaN,NaN,NaN,NaN,""
-4046.07,25.6019,19.9997,4.49321e-07,NaN,1.1233e-07,NaN,""
-4028.58,25.6349,19.9997,-1.34394e-07,NaN,-3.35985e-08,NaN,""
-4020.02,25.7687,19.9998,-3.30607e-07,NaN,-8.26518e-08,NaN,""
-4011.45,25.9025,19.9998,-4.76864e-07,NaN,-1.19216e-07,NaN,""
-4000.15,25.8017,19.9998,-6.67206e-07,NaN,-1.66801e-07,NaN,""
-3988.84,25.7009,19.9998,-1.93044e-07,NaN,-4.82611e-08,NaN,""
-3978.55,25.7126,19.9998,1.45421e-07,NaN,3.63553e-08,NaN,""
-3966.38,25.7265,19.9998,-4.12945e-07,NaN,-1.03236e-07,NaN,""
-3940.48,25.7561,19.9999,3.23659e-07,NaN,8.09146e-08,NaN,""
-3925.26,25.7735,19.9999,3.35335e-07,NaN,8.38337e-08,NaN,""
-3906.54,25.7703,19.9999,1.29055e-07,NaN,3.22636e-08,NaN,""
-3887.83,25.7654,19.9999,6.22006e-08,NaN,1.55502e-08,NaN,""
-3840.29,25.7527,20,1.59212e-07,NaN,3.9803e-08,NaN,""
-3812.57,25.7453,20,-5.3427e-07,NaN,-1.33568e-07,NaN,""
-3802.23,25.7426,20,6.14158e-07,NaN,1.5354e-07,NaN,""
-3789.58,25.7438,20.0001,4.58569e-07,NaN,1.14642e-07,NaN,""
-3776.93,25.7687,20.0001,3.0298e-07,NaN,7.57451e-08,NaN,""
-3715.28,25.89,20.0001,2.02177e-07,NaN,5.05442e-08,NaN,""
-3690.66,25.817,20.0002,1.61921e-07,NaN,4.04803e-08,NaN,""
-3669.74,25.771,20.0002,-1.39083e-08,NaN,-3.47707e-09,NaN,""
-3626.69,25.8289,20.0002,-3.75818e-07,NaN,-9.39545e-08,NaN,""
-3616.93,25.821,20.0003,-3.20604e-07,NaN,-8.01509e-08,NaN,""
-3530,25.7504,19.9999,3.27268e-07,NaN,8.1817e-08,NaN,""
-3472.31,25.7043,19.9997,3.36624e-08,NaN,8.41561e-09,NaN,""
-3414.61,25.6964,19.9998,-2.59943e-07,NaN,-6.49858e-08,NaN,""
-3350.63,25.6877,19.9998,-3.77164e-07,NaN,-9.42909e-08,NaN,""
-3341.9,25.6865,19.9998,-3.93156e-07,NaN,-9.82891e-08,NaN,""
-3324.42,25.6841,19.9998,-8.63657e-07,NaN,-2.15914e-07,NaN,""
-3259.48,25.7408,19.9997,-1.75431e-07,NaN,-4.38579e-08,NaN,""
-3211.94,25.8026,19.9998,3.28409e-07,NaN,8.21022e-08,NaN,""
-3194.35,25.7941,20.0001,5.14813e-07,NaN,1.28703e-07,NaN,""
-3193.35,25.7934,20.0001,5.255e-07,NaN,1.31375e-07,NaN,""
-3175.76,25.7811,20.0002,1.98018e-07,NaN,4.95046e-08,NaN,""
-3144.52,25.7592,19.9999,-3.83542e-07,NaN,-9.58855e-08,NaN,""
-3127.49,25.7472,20.0002,-1.18114e-07,NaN,-2.95286e-08,NaN,""
-3110.87,25.7356,20.0005,7.03618e-07,NaN,1.75904e-07,NaN,""
-3094.57,25.7242,20.0003,4.17072e-07,NaN,1.04268e-07,NaN,""
-3078.27,25.7127,20.0002,1.30525e-07,NaN,3.26314e-08,NaN,""
-3055.22,25.6966,20,-7.36963e-08,NaN,-1.84241e-08,NaN,""
-3034.9,25.6929,20.0001,-1.42914e-07,NaN,-3.57286e-08,NaN,""
-3014.21,25.6945,20.0003,5.13906e-07,NaN,1.28477e-07,NaN,""
-3003.29,25.6953,20.0002,2.11457e-07,NaN,5.28643e-08,NaN,""
-2992.37,25.6961,20.0001,-9.09916e-08,NaN,-2.27479e-08,NaN,""
-2974.21,25.6974,19.9998,4.10357e-07,NaN,1.02589e-07,NaN,""
-2965.8,25.6981,19.9998,1.25678e-07,NaN,3.14196e-08,NaN,""
-2957.4,25.6987,19.9998,-1.59e-07,NaN,-3.97499e-08,NaN,""
-2939.29,25.7,19.9999,7.21647e-07,NaN,1.80412e-07,NaN,""
-2924.48,25.7011,19.9999,7.68818e-08,NaN,1.92204e-08,NaN,""
-2916.83,25.696,19.9999,2.65754e-07,NaN,6.64385e-08,NaN,""
-2908.24,25.6902,20,5.17363e-07,NaN,1.29341e-07,NaN,""
-2899.65,25.6843,19.9999,3.47847e-07,NaN,8.69618e-08,NaN,""
-2889.04,25.6771,19.9997,3.47645e-08,NaN,8.69111e-09,NaN,""
-2875.51,25.668,19.9996,3.25933e-07,NaN,8.14832e-08,NaN,""
-2863.98,25.6602,19.9994,-1.9977e-07,NaN,-4.99425e-08,NaN,""
-2850.98,25.6514,19.9994,4.29636e-08,NaN,1.07409e-08,NaN,""
-2837.98,25.6426,19.9995,2.85697e-07,NaN,7.14243e-08,NaN,""
-2827,25.6734,19.9995,-1.84604e-08,NaN,-4.61511e-09,NaN,""
-2816.02,25.7104,19.9996,-3.22618e-07,NaN,-8.06545e-08,NaN,""
-2782.62,25.823,19.9998,-2.51065e-07,NaN,-6.27661e-08,NaN,""
-2765.04,25.7784,19.9998,-3.70364e-07,NaN,-9.2591e-08,NaN,""
-2726.35,25.6741,19.9998,-6.71363e-07,NaN,-1.67841e-07,NaN,""
-2696.02,25.6957,19.9999,-5.65555e-08,NaN,-1.41389e-08,NaN,""
-2690.64,25.6995,19.9999,-5.12217e-09,NaN,-1.28054e-09,NaN,""
-2679.35,25.7075,19.9996,-4.0684e-07,NaN,-1.0171e-07,NaN,""
-2672.07,25.7127,19.9995,-2.7232e-08,NaN,-6.808e-09,NaN,""
-2658.98,25.722,19.9993,-1.14335e-07,NaN,-2.85837e-08,NaN,""
-2641.83,25.7342,19.9994,-2.28461e-07,NaN,-5.71153e-08,NaN,""
-2617.63,25.7515,19.9995,2.19617e-07,NaN,5.49042e-08,NaN,""
-2593.63,25.7686,19.9996,-3.28406e-07,NaN,-8.21015e-08,NaN,""
-2582.87,25.7735,19.9997,-4.3954e-09,NaN,-1.09885e-09,NaN,""
-2572.12,25.7587,19.9998,3.19615e-07,NaN,7.99038e-08,NaN,""
-2546.52,25.7235,19.9999,-2.08448e-07,NaN,-5.21121e-08,NaN,""
-2535.72,25.7086,19.9999,1.22881e-07,NaN,3.07201e-08,NaN,""
-2524.91,25.6937,19.9998,4.5421e-07,NaN,1.13552e-07,NaN,""
-2512.93,25.6772,19.9998,2.17398e-07,NaN,5.43495e-08,NaN,""
-2502.18,25.7017,19.9998,3.82278e-08,NaN,9.55695e-09,NaN,""
-2464.8,25.7868,19.9997,3.16967e-07,NaN,7.92419e-08,NaN,""
-2439.5,25.7579,19.9997,-5.28444e-08,NaN,-1.32111e-08,NaN,""
-2424.24,25.6886,19.9998,-2.75891e-07,NaN,-6.89728e-08,NaN,""
-2414.19,25.6905,19.9999,-4.22656e-07,NaN,-1.05664e-07,NaN,""
-2405.1,25.6921,19.9999,4.4154e-07,NaN,1.10385e-07,NaN,""
-2393.51,25.6942,20,3.32543e-08,NaN,8.31357e-09,NaN,""
-2376.26,25.6973,20,3.78166e-07,NaN,9.45415e-08,NaN,""
-2359.01,25.7005,20,7.23078e-07,NaN,1.8077e-07,NaN,""
-2340.38,25.7038,20,-1.20124e-07,NaN,-3.00311e-08,NaN,""
-2331.11,25.7055,19.9999,2.11812e-07,NaN,5.2953e-08,NaN,""
-2312.32,25.7089,19.9999,-1.80161e-08,NaN,-4.50403e-09,NaN,""
-2304.74,25.7103,19.9999,5.35983e-07,NaN,1.33996e-07,NaN,""
-2291.82,25.7126,19.9998,-5.97505e-08,NaN,-1.49376e-08,NaN,""
-2287.8,25.7134,19.9998,1.83645e-07,NaN,4.59113e-08,NaN,""
-2283.77,25.7141,19.9998,4.27041e-07,NaN,1.0676e-07,NaN,""
-2268.44,25.7169,19.9999,-4.41657e-07,NaN,-1.10414e-07,NaN,""
-2257.49,25.7189,19.9999,1.2747e-07,NaN,3.18676e-08,NaN,""
-2247.07,25.7207,19.9999,1.71054e-08,NaN,4.27634e-09,NaN,""
-2212.01,25.7271,20,NaN,NaN,NaN,NaN,""
-2176.61,25.7335,19.9997,NaN,NaN,NaN,NaN,""
-2147.66,25.7361,19.9999,NaN,NaN,NaN,NaN,""
-2118.72,25.7289,20,NaN,NaN,NaN,NaN,""
-2056.52,25.7134,19.9994,NaN,NaN,NaN,NaN,""
-1979.95,25.6943,19.9999,NaN,NaN,NaN,NaN,""
-1882.44,25.7132,19.9999,NaN,NaN,NaN,NaN,""
-1754.27,25.7538,19.9998,NaN,NaN,NaN,NaN,""
-1583.14,25.6982,19.9998,NaN,NaN,NaN,NaN,""
-1489.83,25.7235,19.9998,NaN,NaN,NaN,NaN,""
-1396.51,25.7487,19.9998,NaN,NaN,NaN,NaN,""
-1284.94,25.7231,19.9999,NaN,NaN,NaN,NaN,""
-1229.54,25.7104,20,NaN,NaN,NaN,NaN,""
-1154.12,25.6931,19.9995,NaN,NaN,NaN,NaN,""
-1134.06,25.6932,19.9999,NaN,NaN,NaN,NaN,""
-1114,25.7053,20.0002,NaN,NaN,NaN,NaN,""
-1061.55,25.7369,19.9994,NaN,NaN,NaN,NaN,""
-1002.54,25.7725,19.9999,NaN,NaN,NaN,NaN,""
-945.001,25.8071,19.9999,NaN,NaN,NaN,NaN,""
-904.626,25.7854,19.9999,NaN,NaN,NaN,NaN,""
-864.252,25.7636,20.0003,NaN,NaN,NaN,NaN,""
-837.763,25.7993,20.0003,NaN,NaN,NaN,NaN,""
-803.452,25.8455,19.9999,NaN,NaN,NaN,NaN,""
-773.025,25.6757,19.9999,NaN,NaN,NaN,NaN,""
-756.751,25.7225,19.9998,NaN,NaN,NaN,NaN,""
[...]
369855,25.6971,19.9996,0.00115672,1229.24,0.000289181,307.309,""
374009,25.677,19.9998,0.00114515,1234.02,0.000286288,308.504,""
377942,25.5317,20,0.00113436,1238.5,0.00028359,309.625,""
382727,25.6234,20,0.00112144,1243.9,0.00028036,310.975,""
387456,25.7156,19.9998,0.00110877,1249.17,0.000277194,312.294,""
391678,25.72,20.0001,0.00109616,1253.83,0.00027404,313.457,""
396815,25.661,20.0001,0.00108078,1259.42,0.000270194,314.855,""
401675,25.6858,20.0001,0.00106638,1264.63,0.000266595,316.159,""
406360,25.6362,19.9998,0.00105222,1269.6,0.000263054,317.399,""
410154,25.675,20.0003,0.001041,1273.57,0.000260249,318.392,""
414657,25.6129,20.0004,0.00102767,1278.22,0.000256917,319.556,""
419095,25.5651,20.0003,0.00101403,1282.75,0.000253507,320.689,""
423876,25.6319,19.9997,0.000999768,1287.57,0.000249942,321.892,""
428222,25.5728,20.0001,0.000985567,1291.88,0.000246392,322.97,""
432065,25.6331,20,0.000973909,1295.65,0.000243477,323.911,""
435936,25.5946,20.0001,0.000961734,1299.39,0.000240433,324.848,""
439737,25.5843,19.9999,0.00094906,1303.02,0.000237265,325.756,""
443179,25.6041,19.9999,0.000938395,1306.27,0.000234599,326.568,""
447316,25.5966,19.9999,0.000925895,1310.13,0.000231474,327.532,""
451068,25.7111,19.9997,0.000914638,1313.58,0.00022866,328.395,""
454486,25.7106,19.9996,0.000904855,1316.69,0.000226214,329.172,""
457811,25.7209,19.9996,0.000895025,1319.68,0.000223756,329.921,""
461744,25.7396,19.9997,0.000884991,1323.19,0.000221248,330.797,""
466281,25.6179,19.9999,0.000873553,1327.17,0.000218388,331.794,""
470171,25.574,20.0001,0.000863719,1330.55,0.00021593,332.638,""
474616,25.649,20,0.000851924,1334.36,0.000212981,333.59,""
479599,25.7227,20.0001,0.000838983,1338.58,0.000209746,334.644,""
484211,25.6375,19.9999,0.000827357,1342.42,0.000206839,335.605,""
488793,25.7069,20.0001,0.000815319,1346.18,0.00020383,336.546,""
492253,25.5528,19.9994,0.000806213,1348.99,0.000201553,337.247,""
498502,25.6086,19.9998,0.000790222,1353.98,0.000197556,338.495,""
502759,26.4223,20.0011,0.000780504,1357.33,0.000195126,339.331,""
506767,26.1808,19.9998,0.000770674,1360.44,0.000192669,340.109,""
511094,26.3883,19.9998,0.000759499,1363.75,0.000189875,340.937,""
515000,26.4674,19.9998,0.000748919,1366.69,0.00018723,341.673,""
518754,26.4545,19.9996,0.000738933,1369.49,0.000184733,342.372,""
522444,26.366,20.0001,0.000729934,1372.2,0.000182484,343.05,""
526916,26.4786,20.0004,0.000718551,1375.44,0.000179638,343.859,""
531255,26.5405,19.9997,0.000707978,1378.53,0.000176995,344.633,""
535296,26.5764,19.9999,0.000698297,1381.37,0.000174574,345.343,""
539371,25.3957,19.9996,0.00068839,1384.2,0.000172098,346.049,""
542955,25.3316,19.9992,0.000679944,1386.65,0.000169986,346.662,""
547022,25.4592,19.9998,0.000671639,1389.4,0.00016791,347.35,""
550907,25.4629,19.9997,0.000664369,1391.99,0.000166092,347.999,""
554754,25.0929,19.9998,0.000656613,1394.53,0.000164153,348.634,""
559628,25.0223,19.9998,0.000647425,1397.71,0.000161856,349.428,""
565690,24.921,19.9999,0.000636031,1401.6,0.000159008,350.401,""
571688,24.9473,19.9999,0.00062513,1405.38,0.000156283,351.346,""
577383,24.9424,20.0008,0.000613722,1408.91,0.00015343,352.228,""
582490,24.9724,20.0001,0.000602848,1412.02,0.000150712,353.004,""
587081,25.6721,19.9998,0.000595937,1414.77,0.000148984,353.693,""
590988,25.8381,19.9999,0.000587832,1417.08,0.000146958,354.271,""
595917,25.9901,20.0001,0.000577635,1419.96,0.000144409,354.989,""
599942,25.9432,20.0003,0.000569454,1422.27,0.000142363,355.567,""
603041,NaN,NaN,0.000563522,1424.02,0.00014088,356.006,""
603041,NaN,NaN,NaN,NaN,NaN,NaN,"Ampoule removed"