Folder: presentation_calocem/data

Note: README.md
## Overview

This repository contains a small, application-oriented presentation of **CaloCem** that I prepared for an austrian building materials company. The goal is not to show the full complexity of the tool, but to demonstrate a few simple, practical workflows in a way that is accessible even for colleagues without any programming background.

The code is intentionally kept minimal (no loops, no advanced Python concepts) and focuses on a few clear examples: loading data (showing multiple times), running selected CaloCem functions and visualising the results. I am still learning the deeper programmatic background functions of CaloCem myself, so this repository is meant as a very small, beginner-friendly entry point that shows what the tool can already do in a simple, visual form.

File: JAA_CAL345.csv
Summary
Name,"JAA_CAL345.rslt"
Start time,2023 Jun 06 - 12:07
End time,2023 Jun 13 - 12:47
Operator,"JAA"
Results file path,"C:\Users\ge65ley\Desktop\Calorimetry_Results\AXD\Results_files\JAA_CAL345.rslt"
General Experiment Info
Bath temperature,20Â°C
,Sample - 25336:1
Total mass,6g
Name,"JAA_CAL345"
,Component - OPC
Mass,4g
Name,"OPC"
ID,"Karlstadt CEM I 52.5N 12.10.21"

"Time","Temperature [AmbientT(Therm3T)]","Temperature [Temperature]","Heat flow [Signal]","Heat [Signal]","Normalized heat flow [Signal]","Normalized heat [Signal]","Time markers"
-4446.53,25.6773,20.0002,NaN,NaN,NaN,NaN,""
-4445.53,25.6781,20.0002,9.15469e-07,NaN,2.28867e-07,NaN,""
-4437.15,25.6851,20.0001,1.08627e-06,NaN,2.71568e-07,NaN,""
-4403.97,25.7128,19.9997,9.80632e-07,NaN,2.45158e-07,NaN,""
-4386.68,25.7052,19.9998,1.13964e-06,NaN,2.84909e-07,NaN,""
-4372.31,25.6979,19.9998,1.2711e-06,NaN,3.17776e-07,NaN,""
-4320.87,25.6715,20,1.25134e-06,NaN,3.12836e-07,NaN,""
-4259.79,25.6442,19.9998,1.22789e-06,NaN,3.06972e-07,NaN,""
-4251.69,25.6445,19.9998,1.22478e-06,NaN,3.06194e-07,NaN,""
-4205.99,25.6459,19.9997,6.057e-07,NaN,1.51425e-07,NaN,""
-4184.09,25.6466,19.9996,7.83422e-07,NaN,1.95856e-07,NaN,""
-4163.02,25.6473,20,9.54368e-07,NaN,2.38592e-07,NaN,""
-4145.53,25.6478,20.0003,8.9758e-07,NaN,2.24395e-07,NaN,""
-4126.65,25.6484,20.0001,8.36303e-07,NaN,2.09076e-07,NaN,""
-4111.65,25.6489,20,1.01857e-06,NaN,2.54642e-07,NaN,""
-4090.39,25.6495,19.9998,6.4332e-07,NaN,1.6083e-07,NaN,""
-4073.37,25.6501,19.9998,4.09952e-07,NaN,1.02488e-07,NaN,""
-4044.98,25.6509,19.9997,3.60232e-07,NaN,9.00581e-08,NaN,""
-4041.68,25.6957,19.9997,3.5445e-07,NaN,8.86126e-08,NaN,""
-4028.28,25.8777,19.9997,-3.57919e-08,NaN,-8.94797e-09,NaN,""
-4021.92,25.8607,19.9997,5.27758e-08,NaN,1.31939e-08,NaN,""
-4015.56,25.8336,19.9997,1.41343e-07,NaN,3.53359e-08,NaN,""
-3989.16,25.7213,19.9996,-5.44552e-08,NaN,-1.36138e-08,NaN,""
-3972.85,25.7222,19.9997,-7.96285e-08,NaN,-1.99071e-08,NaN,""
-3925.08,25.8143,20.0001,1.91932e-08,NaN,4.7983e-09,NaN,""
-3895.33,25.7982,20.0001,-9.45164e-08,NaN,-2.36291e-08,NaN,""
-3865.59,25.7325,20.0001,-2.08226e-07,NaN,-5.20565e-08,NaN,""
-3857.64,25.7301,20,-4.09802e-08,NaN,-1.0245e-08,NaN,""
-3849.69,25.7331,20,1.26266e-07,NaN,3.15664e-08,NaN,""
-3828.87,25.7412,20,-6.56772e-08,NaN,-1.64193e-08,NaN,""
-3815.8,25.7463,20,1.11558e-07,NaN,2.78896e-08,NaN,""
-3797.78,25.7533,20,-2.09873e-07,NaN,-5.24682e-08,NaN,""
-3784.53,25.7663,20,-3.12817e-07,NaN,-7.82042e-08,NaN,""
-3773.84,25.7953,20,-2.04852e-07,NaN,-5.12131e-08,NaN,""
-3760.25,25.8321,20.0001,-4.6042e-07,NaN,-1.15105e-07,NaN,""
-3743.28,25.878,20.0001,-2.56712e-07,NaN,-6.4178e-08,NaN,""
-3734.15,25.8927,20.0001,-3.90341e-07,NaN,-9.75853e-08,NaN,""
-3725.03,25.8822,20.0002,-5.2397e-07,NaN,-1.30993e-07,NaN,""
-3712.12,25.8673,20.0002,-1.5197e-07,NaN,-3.79926e-08,NaN,""
-3682.7,25.8333,20.0002,-1.86287e-07,NaN,-4.65718e-08,NaN,""
-3653.28,25.7994,20.0001,-2.20604e-07,NaN,-5.5151e-08,NaN,""
-3626.83,25.7689,20.0001,4.33742e-08,NaN,1.08436e-08,NaN,""
-3626.5,25.7687,20.0001,4.67177e-08,NaN,1.16794e-08,NaN,""
-3618.03,25.7661,20,-1.85752e-07,NaN,-4.64381e-08,NaN,""
-3596.58,25.7592,20,2.48593e-08,NaN,6.21483e-09,NaN,""
-3571.24,25.7512,19.9999,-5.079e-07,NaN,-1.26975e-07,NaN,""
-3550.03,25.7444,19.9998,-2.10007e-07,NaN,-5.25017e-08,NaN,""
-3536.92,25.7402,19.9998,-3.5971e-07,NaN,-8.99275e-08,NaN,""
-3522.17,25.7356,19.9997,-1.63894e-07,NaN,-4.09736e-08,NaN,""
-3495.86,25.7272,19.9996,-3.74039e-07,NaN,-9.35098e-08,NaN,""
-3484.68,25.7236,19.9996,-1.44248e-07,NaN,-3.6062e-08,NaN,""
-3469.9,25.7189,19.9996,-3.7464e-07,NaN,-9.366e-08,NaN,""
-3467.29,25.7181,19.9996,-3.71827e-07,NaN,-9.29567e-08,NaN,""
-3438.54,25.7089,19.9999,-3.40811e-07,NaN,-8.52026e-08,NaN,""
-3419.82,25.703,20,-3.16434e-07,NaN,-7.91084e-08,NaN,""
-3401.09,25.697,20,-2.92057e-07,NaN,-7.30142e-08,NaN,""
-3394.71,25.695,19.9999,-5.08311e-07,NaN,-1.27078e-07,NaN,""
-3377.59,25.6896,19.9999,-4.60027e-07,NaN,-1.15007e-07,NaN,""
-3355.78,25.6826,19.9998,-8.87065e-07,NaN,-2.21766e-07,NaN,""
-3341.01,25.6779,19.9998,-8.85252e-07,NaN,-2.21313e-07,NaN,""
-3308.15,25.7201,19.9996,-8.81217e-07,NaN,-2.20304e-07,NaN,""
-3286.2,25.7483,19.9995,-5.22636e-07,NaN,-1.30659e-07,NaN,""
-3260.19,25.7816,19.9995,-2.98696e-07,NaN,-7.46741e-08,NaN,""
-3234.99,25.807,19.9998,-8.17537e-08,NaN,-2.04384e-08,NaN,""
-3234.18,25.8064,19.9998,-7.47565e-08,NaN,-1.86891e-08,NaN,""
-3219.79,25.7958,20,-2.41405e-07,NaN,-6.03512e-08,NaN,""
-3206.47,25.7861,20,-1.82036e-07,NaN,-4.55089e-08,NaN,""
-3193.15,25.7763,20,-1.22667e-07,NaN,-3.06666e-08,NaN,""
-3138.7,25.7363,20,-2.24162e-07,NaN,-5.60404e-08,NaN,""
-3112.32,25.7232,20,-2.67689e-07,NaN,-6.69222e-08,NaN,""
-3085.93,25.7187,20,-3.11216e-07,NaN,-7.78039e-08,NaN,""
-3030.98,25.7094,20,1.49984e-07,NaN,3.7496e-08,NaN,""
-2957.95,25.697,20,-1.59536e-07,NaN,-3.98839e-08,NaN,""
-2926.5,25.6916,20,-2.79069e-07,NaN,-6.97673e-08,NaN,""
-2923.42,25.6911,20,-2.90811e-07,NaN,-7.27028e-08,NaN,""
-2889.26,25.6645,19.9995,-4.2067e-07,NaN,-1.05167e-07,NaN,""
-2877.82,25.6557,19.9994,-1.14046e-07,NaN,-2.85115e-08,NaN,""
-2867.2,25.6474,19.9994,1.41473e-07,NaN,3.53683e-08,NaN,""
-2849.67,25.6605,19.9995,-8.1419e-09,NaN,-2.03547e-09,NaN,""
-2832.14,25.7166,19.9995,-1.62305e-07,NaN,-4.05762e-08,NaN,""
-2799.6,25.8207,19.9997,-6.19963e-07,NaN,-1.54991e-07,NaN,""
-2772.35,25.7242,19.9998,-9.84611e-07,NaN,-2.46153e-07,NaN,""
-2753.35,25.6569,19.9998,-8.69077e-07,NaN,-2.17269e-07,NaN,""
-2735.83,25.6548,19.9998,-8.67723e-07,NaN,-2.16931e-07,NaN,""
-2718.32,25.7059,19.9997,-8.66369e-07,NaN,-2.16592e-07,NaN,""
-2706.4,25.7407,19.9997,-5.21527e-07,NaN,-1.30382e-07,NaN,""
-2688.57,25.7643,19.9996,-5.92498e-07,NaN,-1.48125e-07,NaN,""
-2670.73,25.7711,19.9995,-6.6347e-07,NaN,-1.65867e-07,NaN,""
-2646.53,25.7804,19.9995,-3.74291e-07,NaN,-9.35727e-08,NaN,""
-2581.06,25.8055,19.9999,NaN,NaN,NaN,NaN,""
-2557.43,25.7404,20,NaN,NaN,NaN,NaN,""
-2533.8,25.6752,19.9999,NaN,NaN,NaN,NaN,""
-2485.81,25.786,19.9996,NaN,NaN,NaN,NaN,""
-2454.17,25.7445,19.9998,NaN,NaN,NaN,NaN,""
-2440.59,25.694,19.9999,NaN,NaN,NaN,NaN,""
-2403.07,25.6965,20,NaN,NaN,NaN,NaN,""
-2358.23,25.6995,19.9999,NaN,NaN,NaN,NaN,""
-2307.46,25.7671,19.9998,NaN,NaN,NaN,NaN,""
-2279.64,25.75,19.9998,NaN,NaN,NaN,NaN,""
-2251.4,25.721,19.9998,NaN,NaN,NaN,NaN,""
-2233.53,25.8816,19.9998,NaN,NaN,NaN,NaN,""
-2208.14,25.7313,19.9998,NaN,NaN,NaN,NaN,""
-2181.98,25.7345,19.9998,NaN,NaN,NaN,NaN,""
-2162.53,25.7369,20.0002,NaN,NaN,NaN,NaN,""
-2116.23,25.7426,19.9999,NaN,NaN,NaN,NaN,""
-2080.77,25.7337,19.9997,NaN,NaN,NaN,NaN,""
-1963.93,25.7044,19.9999,NaN,NaN,NaN,NaN,""
-1906.66,25.705,19.9999,NaN,NaN,NaN,NaN,""
-1849.38,25.718,19.9999,NaN,NaN,NaN,NaN,""
-1783.26,25.733,20.0002,NaN,NaN,NaN,NaN,""
-1749.44,25.7406,19.9996,NaN,NaN,NaN,NaN,""
-1714.55,25.741,19.9998,NaN,NaN,NaN,NaN,""
-1679.66,25.7289,20,NaN,NaN,NaN,NaN,""
-1634.33,25.7132,19.9998,NaN,NaN,NaN,NaN,""
-1586.53,25.6967,20.0003,NaN,NaN,NaN,NaN,""
-1561.91,25.7013,20,NaN,NaN,NaN,NaN,""
-1537.29,25.7151,19.9998,NaN,NaN,NaN,NaN,""
-1451.52,25.7635,19.9998,NaN,NaN,NaN,NaN,""
-1401.37,25.7367,19.9998,NaN,NaN,NaN,NaN,""
-1351.23,25.7098,19.9998,NaN,NaN,NaN,NaN,""
-1302.7,25.7547,19.9997,NaN,NaN,NaN,NaN,""
-1278.46,25.7493,19.9999,NaN,NaN,NaN,NaN,""
-1254.21,25.6446,20.0001,NaN,NaN,NaN,NaN,""
[...]
367612,25.7487,19.9997,0.000953175,1368.77,0.000238294,342.194,""
372386,25.773,20,0.000934449,1373.28,0.000233612,343.32,""
376672,25.638,19.9996,0.000918064,1377.25,0.000229516,344.312,""
380187,25.6402,19.9998,0.00090486,1380.45,0.000226215,345.113,""
383905,25.7127,20.0001,0.000890526,1383.79,0.000222631,345.947,""
387944,25.7494,19.9997,0.000874797,1387.35,0.000218699,346.838,""
392051,25.6788,19.9995,0.000859751,1390.91,0.000214938,347.729,""
396289,25.717,19.9997,0.000845033,1394.53,0.000211258,348.632,""
400586,25.6681,19.9999,0.000829877,1398.13,0.000207469,349.531,""
405730,25.6549,19.9998,0.000812961,1402.35,0.00020324,350.588,""
410750,25.7067,19.9999,0.000796127,1406.39,0.000199032,351.597,""
415612,25.5571,20.0002,0.000781292,1410.22,0.000195323,352.556,""
419968,25.5215,19.9999,0.00076685,1413.59,0.000191712,353.398,""
424466,25.5847,20.0003,0.000753022,1417.01,0.000188255,354.253,""
428330,25.585,19.9999,0.000741133,1419.9,0.000185283,354.975,""
432935,25.5008,20,0.000728204,1423.28,0.000182051,355.82,""
436444,25.5599,19.9998,0.000717279,1425.82,0.00017932,356.454,""
440657,25.5912,19.9999,0.00070534,1428.82,0.000176335,357.204,""
445051,25.7012,20,0.000693456,1431.89,0.000173364,357.972,""
448765,25.5746,19.9999,0.000683415,1434.44,0.000170854,358.611,""
452620,25.6324,19.999,0.000673566,1437.06,0.000168392,359.265,""
456180,25.6678,20,0.000665264,1439.44,0.000166316,359.861,""
460056,25.7619,20.0001,0.000656366,1442,0.000164091,360.501,""
464843,25.6095,19.9998,0.000644848,1445.12,0.000161212,361.28,""
469435,25.5355,20.0002,0.000634463,1448.05,0.000158616,362.013,""
473790,25.7068,19.9993,0.000623826,1450.79,0.000155957,362.698,""
478563,25.6644,19.9999,0.000613859,1453.75,0.000153465,363.437,""
483482,25.6674,19.9997,0.000602448,1456.74,0.000150612,364.185,""
489045,25.6973,20,0.000590298,1460.06,0.000147574,365.014,""
494008,25.5682,20.0011,0.000579474,1462.96,0.000144869,365.739,""
498051,25.5568,19.9999,0.000570569,1465.28,0.000142642,366.321,""
502429,26.4325,20.0005,0.000561602,1467.76,0.0001404,366.94,""
505840,26.4166,20.0003,0.000555661,1469.67,0.000138915,367.417,""
509740,26.3102,20.0006,0.000546815,1471.82,0.000136704,367.954,""
513897,26.4491,19.9993,0.000537122,1474.07,0.00013428,368.517,""
518325,26.4476,20.0001,0.000528209,1476.43,0.000132052,369.107,""
522412,26.4549,19.9999,0.000519801,1478.57,0.00012995,369.643,""
526338,26.2106,19.999,0.000512573,1480.6,0.000128143,370.149,""
529405,26.6554,19.9988,0.000507248,1482.16,0.000126812,370.54,""
533826,26.4724,20.0002,0.000498531,1484.38,0.000124633,371.096,""
537992,25.618,19.9998,0.000491461,1486.45,0.000122865,371.611,""
541601,25.4452,19.9997,0.000484614,1488.21,0.000121153,372.052,""
545991,25.2738,19.9997,0.000476757,1490.32,0.000119189,372.579,""
550066,25.4011,19.9997,0.000470187,1492.25,0.000117547,373.062,""
554092,25.0632,19.9994,0.000463715,1494.13,0.000115929,373.532,""
559941,25.0374,19.9999,0.000454718,1496.81,0.000113679,374.204,""
565614,24.9566,19.9999,0.000446403,1499.37,0.000111601,374.843,""
571415,24.9673,19.9995,0.000437722,1501.94,0.00010943,375.484,""
576950,24.9325,19.9999,0.000428933,1504.34,0.000107233,376.084,""
581254,24.98,19.9999,0.000421923,1506.17,0.000105481,376.542,""
586412,25.6925,19.9997,0.000416059,1508.33,0.000104015,377.082,""
590715,25.797,19.9998,0.000409687,1510.11,0.000102422,377.527,""
594655,25.9334,19.9997,0.000403556,1511.71,0.000100889,377.927,""
598881,25.9714,19.9996,0.000397159,1513.4,9.92898e-05,378.35,""
602743,25.9013,20,0.000391079,1514.92,9.77699e-05,378.731,""
602744,25.9016,20,NaN,NaN,NaN,NaN,"Ampoule removed"
602744,25.9016,20,NaN,NaN,NaN,NaN,""

File: JAA_CAL347.csv
Summary
Name,"JAA_CAL347.rslt"
Start time,2023 Jun 06 - 12:09
End time,2023 Jun 13 - 12:49
Operator,"JAA"
Results file path,"C:\Users\ge65ley\Desktop\Calorimetry_Results\AXD\Results_files\JAA_CAL347.rslt"
General Experiment Info
Bath temperature,20Â°C
,Sample - 25336:3
Total mass,6g
Name,"JAA_CAL347"
,Component - OPC
Mass,4g
Name,"OPC"
ID,"Karlstadt CEM I 52.5N 12.10.21"

"Time","Temperature [AmbientT(Therm3T)]","Temperature [Temperature]","Heat flow [Signal]","Heat [Signal]","Normalized heat flow [Signal]","Normalized heat [Signal]","Time markers"
-4334.72,25.5956,20.0001,NaN,NaN,NaN,NaN,""
-4334.67,25.5957,20.0001,8.94008e-07,NaN,2.23502e-07,NaN,""
-4309.38,25.6919,20,9.27563e-07,NaN,2.31891e-07,NaN,""
-4262.86,25.6617,19.9999,9.89281e-07,NaN,2.4732e-07,NaN,""
-4225.28,25.6451,19.9998,8.62305e-07,NaN,2.15576e-07,NaN,""
-4164.04,25.6584,19.9997,4.71023e-07,NaN,1.17756e-07,NaN,""
-4156.59,25.6601,19.9996,5.16231e-07,NaN,1.29058e-07,NaN,""
-4124.29,25.6671,20.0003,7.1212e-07,NaN,1.7803e-07,NaN,""
-4100.39,25.6723,20.0001,7.34633e-07,NaN,1.83658e-07,NaN,""
-4077.86,25.6571,19.9999,6.97118e-07,NaN,1.7428e-07,NaN,""
-4071.17,25.6514,19.9999,6.85989e-07,NaN,1.71497e-07,NaN,""
-4065.2,25.6464,19.9998,5.39429e-07,NaN,1.34857e-07,NaN,""
-4059.24,25.6414,19.9998,3.92869e-07,NaN,9.82173e-08,NaN,""
-4025.27,25.6539,19.9997,3.0356e-07,NaN,7.589e-08,NaN,""
-4002.9,25.8853,19.9997,2.44764e-07,NaN,6.1191e-08,NaN,""
-3964.35,25.7213,19.9996,1.43399e-07,NaN,3.58499e-08,NaN,""
-3944.14,25.7297,19.9998,9.02653e-08,NaN,2.25663e-08,NaN,""
-3917.31,25.7814,20,-1.95762e-07,NaN,-4.89405e-08,NaN,""
-3906.17,25.8029,20.0001,-3.41459e-08,NaN,-8.53648e-09,NaN,""
-3892.22,25.8298,20.0001,-1.14401e-07,NaN,-2.86002e-08,NaN,""
-3878.26,25.8153,20.0001,-1.94656e-07,NaN,-4.8664e-08,NaN,""
-3840.67,25.7322,20.0001,-3.14731e-07,NaN,-7.86828e-08,NaN,""
-3835.05,25.7292,20.0001,-1.52246e-07,NaN,-3.80614e-08,NaN,""
-3829.44,25.7315,20,1.02398e-08,NaN,2.55994e-09,NaN,""
-3796.71,25.7445,20,-5.72789e-08,NaN,-1.43197e-08,NaN,""
-3772.97,25.7539,20,-9.89217e-08,NaN,-2.47304e-08,NaN,""
-3755.4,25.7786,20,-3.90764e-08,NaN,-9.7691e-09,NaN,""
-3742.23,25.8141,20.0001,1.31138e-07,NaN,3.27845e-08,NaN,""
-3728.92,25.85,20.0001,-1.27786e-08,NaN,-3.19464e-09,NaN,""
-3713.33,25.892,20.0001,9.06862e-08,NaN,2.26716e-08,NaN,""
-3706.44,25.8893,20.0001,-6.50415e-09,NaN,-1.62604e-09,NaN,""
-3699.55,25.8814,20.0002,-1.03695e-07,NaN,-2.59236e-08,NaN,""
-3673.98,25.8519,20.0002,5.34282e-08,NaN,1.3357e-08,NaN,""
-3660.49,25.8363,20.0003,-9.87488e-08,NaN,-2.46872e-08,NaN,""
-3648.43,25.8224,20.0002,-2.06369e-07,NaN,-5.15922e-08,NaN,""
-3625.8,25.7963,20.0001,-1.87791e-08,NaN,-4.69478e-09,NaN,""
-3612.62,25.7811,20.0001,-2.39629e-07,NaN,-5.99073e-08,NaN,""
-3602.02,25.7689,20.0001,-2.55794e-07,NaN,-6.39486e-08,NaN,""
-3591.91,25.7651,20,-2.66889e-07,NaN,-6.67223e-08,NaN,""
-3544.05,25.7471,19.9999,8.82985e-08,NaN,2.20746e-08,NaN,""
-3504.88,25.7325,19.9998,-2.87961e-07,NaN,-7.19903e-08,NaN,""
-3463.89,25.7171,19.9996,-2.05846e-08,NaN,-5.14615e-09,NaN,""
-3443.17,25.7094,19.9996,-2.69559e-07,NaN,-6.73898e-08,NaN,""
-3442.48,25.7091,19.9996,-2.6428e-07,NaN,-6.607e-08,NaN,""
-3430.98,25.7048,19.9997,-1.76317e-07,NaN,-4.40791e-08,NaN,""
-3408.41,25.6963,20,-4.63158e-07,NaN,-1.1579e-07,NaN,""
-3402.23,25.694,20,-3.87843e-07,NaN,-9.69608e-08,NaN,""
-3396.05,25.6917,20,-3.12528e-07,NaN,-7.81321e-08,NaN,""
-3364.47,25.6799,19.9999,-4.98508e-07,NaN,-1.24627e-07,NaN,""
-3340.71,25.671,19.9998,-8.81358e-07,NaN,-2.20339e-07,NaN,""
-3330.35,25.6671,19.9998,-8.71571e-07,NaN,-2.17893e-07,NaN,""
-3321.36,25.7198,19.9998,-8.63087e-07,NaN,-2.15772e-07,NaN,""
-3312.37,25.7725,19.9997,-8.54603e-07,NaN,-2.13651e-07,NaN,""
-3292.3,25.6094,19.9996,-8.35658e-07,NaN,-2.08915e-07,NaN,""
-3281.99,25.6622,19.9996,-6.43212e-07,NaN,-1.60803e-07,NaN,""
-3263.86,25.7685,19.9995,-3.0468e-07,NaN,-7.61701e-08,NaN,""
-3250.71,25.7712,19.9994,-2.85917e-07,NaN,-7.14793e-08,NaN,""
-3237.56,25.7734,19.9995,-2.67154e-07,NaN,-6.67885e-08,NaN,""
-3193.16,25.7812,20,-8.92118e-08,NaN,-2.23029e-08,NaN,""
-3190.79,25.7816,20,-7.97278e-08,NaN,-1.99319e-08,NaN,""
-3185.09,25.7826,20,-1.617e-07,NaN,-4.0425e-08,NaN,""
-3179.43,25.7792,20,-2.41908e-07,NaN,-6.0477e-08,NaN,""
-3143.91,25.7578,20,-4.74829e-08,NaN,-1.18707e-08,NaN,""
-3121.22,25.7441,20,-3.05387e-07,NaN,-7.63467e-08,NaN,""
-3104.35,25.7339,20,2.87918e-08,NaN,7.19794e-09,NaN,""
-3094.42,25.7279,20,-2.20112e-07,NaN,-5.50279e-08,NaN,""
-3079.24,25.7188,20,6.70535e-08,NaN,1.67634e-08,NaN,""
-3062.43,25.7086,20,-7.34512e-08,NaN,-1.83628e-08,NaN,""
-3051.08,25.7018,20,-2.66696e-08,NaN,-6.66739e-09,NaN,""
-3043.47,25.6972,20,1.06837e-07,NaN,2.67093e-08,NaN,""
-3034.19,25.6964,20,4.51909e-08,NaN,1.12977e-08,NaN,""
-3024.9,25.6966,20,-1.64555e-08,NaN,-4.11387e-09,NaN,""
-2990.77,25.6971,20,2.77487e-07,NaN,6.93718e-08,NaN,""
-2957.57,25.6976,20,-1.29596e-07,NaN,-3.2399e-08,NaN,""
-2943.67,25.6978,20,3.07509e-08,NaN,7.68773e-09,NaN,""
-2906.79,25.6984,20,-5.23019e-09,NaN,-1.30755e-09,NaN,""
-2901.7,25.6985,20,3.0146e-08,NaN,7.53651e-09,NaN,""
-2890.32,25.6987,19.9999,1.09191e-07,NaN,2.72977e-08,NaN,""
-2880.12,25.6884,19.9997,4.77841e-08,NaN,1.1946e-08,NaN,""
-2869.74,25.6779,19.9996,-9.89497e-08,NaN,-2.47374e-08,NaN,""
-2853.01,25.661,19.9994,6.90142e-09,NaN,1.72536e-09,NaN,""
-2841.81,25.6498,19.9994,2.04446e-08,NaN,5.11114e-09,NaN,""
-2830.81,25.6387,19.9995,-2.40153e-08,NaN,-6.00383e-09,NaN,""
-2820.19,25.6734,19.9995,-1.40994e-08,NaN,-3.52484e-09,NaN,""
-2805.88,25.7202,19.9995,5.60498e-08,NaN,1.40124e-08,NaN,""
-2778.94,25.8084,19.9997,-4.99241e-07,NaN,-1.2481e-07,NaN,""
-2770.56,25.7994,19.9997,-4.46845e-07,NaN,-1.11711e-07,NaN,""
-2762.17,25.7707,19.9997,-3.94449e-07,NaN,-9.86122e-08,NaN,""
-2729.91,25.6605,19.9998,-7.01405e-07,NaN,-1.75351e-07,NaN,""
-2702.05,25.681,19.9998,-5.74996e-07,NaN,-1.43749e-07,NaN,""
-2674.96,25.76,19.9997,-4.52068e-07,NaN,-1.13017e-07,NaN,""
-2637.99,25.7742,19.9995,-2.19873e-07,NaN,-5.49683e-08,NaN,""
-2599.01,25.7891,19.9997,9.67372e-08,NaN,2.41843e-08,NaN,""
-2560.03,25.804,19.9999,1.98236e-07,NaN,4.95589e-08,NaN,""
-2556.25,25.8055,19.9999,1.8376e-07,NaN,4.594e-08,NaN,""
-2534.67,25.746,20,1.00962e-07,NaN,2.52405e-08,NaN,""
-2508.99,25.6752,19.9999,NaN,NaN,NaN,NaN,""
-2461,25.786,19.9996,NaN,NaN,NaN,NaN,""
-2429.36,25.7445,19.9998,NaN,NaN,NaN,NaN,""
-2415.78,25.694,19.9999,NaN,NaN,NaN,NaN,""
-2378.26,25.6965,20,NaN,NaN,NaN,NaN,""
-2333.42,25.6995,20,NaN,NaN,NaN,NaN,""
-2277.78,25.7736,19.9999,NaN,NaN,NaN,NaN,""
-2252.19,25.7473,19.9999,NaN,NaN,NaN,NaN,""
-2226.59,25.721,19.9998,NaN,NaN,NaN,NaN,""
-2208.72,25.8817,19.9998,NaN,NaN,NaN,NaN,""
-2183.33,25.7313,19.9997,NaN,NaN,NaN,NaN,""
-2144.3,25.7274,19.9999,NaN,NaN,NaN,NaN,""
-2115.23,25.7244,20.0001,NaN,NaN,NaN,NaN,""
-1948,25.7074,19.9998,NaN,NaN,NaN,NaN,""
-1871.32,25.7176,19.9999,NaN,NaN,NaN,NaN,""
-1794.64,25.731,20,NaN,NaN,NaN,NaN,""
-1767.19,25.7358,20.0005,NaN,NaN,NaN,NaN,""
-1737.17,25.7411,19.9998,NaN,NaN,NaN,NaN,""
-1667.6,25.7532,20,NaN,NaN,NaN,NaN,""
-1638.56,25.7402,19.9999,NaN,NaN,NaN,NaN,""
-1609.52,25.7249,19.9998,NaN,NaN,NaN,NaN,""
-1561.72,25.6995,20.0003,NaN,NaN,NaN,NaN,""
-1512.44,25.6734,19.9998,NaN,NaN,NaN,NaN,""
-1458.06,25.7184,19.9998,NaN,NaN,NaN,NaN,""
-1423.63,25.7619,19.9998,NaN,NaN,NaN,NaN,""
-1373.49,25.735,19.9998,NaN,NaN,NaN,NaN,""
[...]
373880,25.6869,19.9999,0.000982705,1338.13,0.000245676,334.532,""
378022,25.6222,19.9996,0.000967233,1342.17,0.000241808,335.542,""
381663,25.5911,19.9998,0.000954996,1345.67,0.000238749,336.416,""
385814,25.7505,19.9995,0.000940405,1349.6,0.000235101,337.399,""
390090,25.7258,20,0.000925808,1353.59,0.000231452,338.397,""
394109,25.712,20,0.000911837,1357.28,0.000227959,339.32,""
399188,25.6737,19.9999,0.000894826,1361.87,0.000223707,340.468,""
404758,25.6469,19.9999,0.00087661,1366.8,0.000219153,341.701,""
410084,25.6919,19.9997,0.000858954,1371.43,0.000214738,342.856,""
414479,25.6778,20,0.00084493,1375.17,0.000211233,343.793,""
418953,25.5939,19.9995,0.000831211,1378.92,0.000207803,344.73,""
423362,25.5887,19.9997,0.000818201,1382.56,0.00020455,345.639,""
426916,25.5304,19.9996,0.000807747,1385.44,0.000201937,346.361,""
431647,25.5829,20.0001,0.000793404,1389.23,0.000198351,347.308,""
435651,25.5772,19.9997,0.000782054,1392.39,0.000195513,348.096,""
439944,25.5545,20.0003,0.000770051,1395.72,0.000192513,348.929,""
443746,25.5803,19.9998,0.000759949,1398.63,0.000189987,349.656,""
447653,25.6203,19.9999,0.000747862,1401.57,0.000186966,350.392,""
451365,25.6809,19.9998,0.000737357,1404.33,0.000184339,351.082,""
454720,25.6655,19.9995,0.000728069,1406.78,0.000182017,351.696,""
459286,25.6795,20,0.000716058,1410.08,0.000179015,352.521,""
463959,25.5881,20.0001,0.000703643,1413.4,0.000175911,353.349,""
468788,25.5545,19.9998,0.000690799,1416.76,0.0001727,354.191,""
473070,25.6051,20.0001,0.000679846,1419.7,0.000169962,354.925,""
478175,25.6572,19.9995,0.000667434,1423.14,0.000166858,355.784,""
482953,25.6354,19.9997,0.000656395,1426.3,0.000164099,356.575,""
487689,25.6271,19.9999,0.000645982,1429.38,0.000161495,357.346,""
491608,25.6418,20.0007,0.000637504,1431.9,0.000159376,357.975,""
495933,25.5645,19.9997,0.000627179,1434.63,0.000156795,358.658,""
501011,25.6505,20.0001,0.000616495,1437.79,0.000154124,359.448,""
504655,26.568,19.9997,0.000609242,1440.02,0.000152311,360.006,""
508795,26.3936,19.9999,0.000600717,1442.53,0.000150179,360.632,""
512943,26.4266,19.9997,0.000592437,1445,0.000148109,361.251,""
516852,26.0771,19.9998,0.00058498,1447.3,0.000146245,361.826,""
521844,26.3765,20.0003,0.00057447,1450.2,0.000143618,362.55,""
525733,26.4143,20.0004,0.000567193,1452.42,0.000141798,363.104,""
528748,26.5982,19.9998,0.000560857,1454.12,0.000140214,363.53,""
533094,26.5687,19.9997,0.000552004,1456.54,0.000138001,364.134,""
537450,25.552,19.9994,0.000543165,1458.92,0.000135791,364.73,""
540981,25.4981,19.9997,0.00053523,1460.83,0.000133808,365.206,""
545360,25.2109,19.9991,0.000526753,1463.15,0.000131688,365.788,""
549749,25.4053,19.9994,0.000518594,1465.45,0.000129649,366.361,""
553450,25.2457,19.9999,0.000511878,1467.35,0.000127969,366.838,""
558303,25.0581,19.9998,0.000503437,1469.82,0.000125859,367.454,""
563826,24.9643,19.9998,0.000494097,1472.57,0.000123524,368.143,""
569130,24.9463,19.9999,0.000485299,1475.17,0.000121325,368.792,""
574944,24.9322,19.9995,0.000476379,1477.96,0.000119095,369.491,""
580281,24.9246,19.9997,0.000467917,1480.48,0.000116979,370.121,""
584834,25.6042,20.0001,0.000460379,1482.6,0.000115095,370.649,""
588980,25.6063,19.9998,0.000454348,1484.49,0.000113587,371.123,""
592739,25.8182,20.0002,0.000448708,1486.19,0.000112177,371.547,""
596316,25.9878,19.9998,0.000443171,1487.78,0.000110793,371.946,""
600734,25.9301,19.9998,0.000436367,1489.73,0.000109092,372.432,""
602893,25.8844,19.9999,0.00043301,1490.67,0.000108252,372.666,""
602894,25.8856,19.9999,NaN,NaN,NaN,NaN,"Ampoule removed"
602894,25.8873,19.9999,NaN,NaN,NaN,NaN,""