Folder: presentation_calocem/data (part 3)

File: JAA_CAL350.csv
Summary
Name,"JAA_CAL350.rslt"
Start time,2023 Jun 06 - 12:11
End time,2023 Jun 13 - 12:53
Operator,"JAA"
Results file path,"C:\Users\ge65ley\Desktop\Calorimetry_Results\AXD\Results_files\JAA_CAL350.rslt"
General Experiment Info
Bath temperature,20Â°C
,Sample - 25336:6
Total mass,6g
Name,"JAA_CAL350"
,Component - OPC
Mass,4g
Name,"OPC"
ID,"Karlstadt CEM I 52.5N 12.10.21"

"Time","Temperature [AmbientT(Therm3T)]","Temperature [Temperature]","Heat flow [Signal]","Heat [Signal]","Normalized heat flow [Signal]","Normalized heat [Signal]","Time markers"
-4181.28,25.672,19.9997,NaN,NaN,NaN,NaN,""
-4181.28,25.672,19.9997,4.77167e-07,NaN,1.19292e-07,NaN,""
-4154.94,25.6707,20,1.01243e-06,NaN,2.53108e-07,NaN,""
-4135.74,25.6697,20.0003,8.42065e-07,NaN,2.10516e-07,NaN,""
-4122.61,25.6691,20.0002,9.26233e-07,NaN,2.31558e-07,NaN,""
-4117.85,25.6689,20.0002,9.70553e-07,NaN,2.42638e-07,NaN,""
-4102.53,25.6681,20,5.10561e-07,NaN,1.2764e-07,NaN,""
-4081.69,25.6624,19.9999,6.35488e-07,NaN,1.58872e-07,NaN,""
-4060.84,25.6512,19.9998,7.60414e-07,NaN,1.90104e-07,NaN,""
-4032.81,25.667,19.9998,2.06045e-07,NaN,5.15113e-08,NaN,""
-4010.36,25.9435,19.9997,-2.37782e-07,NaN,-5.94456e-08,NaN,""
-4000.71,25.8222,19.9997,-3.85558e-07,NaN,-9.63895e-08,NaN,""
-3991.06,25.7009,19.9997,-1.88981e-07,NaN,-4.72452e-08,NaN,""
-3961.07,25.7243,19.9996,4.21797e-07,NaN,1.05449e-07,NaN,""
-3952.28,25.7324,19.9996,3.66008e-07,NaN,9.15021e-08,NaN,""
-3908.22,25.8043,20.0001,8.615e-08,NaN,2.15375e-08,NaN,""
-3880.72,25.8061,20.0001,-4.11777e-08,NaN,-1.02944e-08,NaN,""
-3844.27,25.7783,20.0001,4.64295e-07,NaN,1.16074e-07,NaN,""
-3815.16,25.7561,20,-4.69247e-07,NaN,-1.17312e-07,NaN,""
-3807.02,25.7498,20,5.30219e-07,NaN,1.32555e-07,NaN,""
-3755.4,25.8154,20,2.55557e-07,NaN,6.38891e-08,NaN,""
-3717.22,25.8898,20.0001,5.24327e-08,NaN,1.31082e-08,NaN,""
-3703.77,25.8796,20.0001,-1.9106e-08,NaN,-4.77651e-09,NaN,""
-3678.38,25.8603,20.0002,4.62381e-07,NaN,1.15595e-07,NaN,""
-3658.41,25.8451,20.0002,-2.67504e-07,NaN,-6.68761e-08,NaN,""
-3641.12,25.832,20.0002,-1.53643e-07,NaN,-3.84108e-08,NaN,""
-3619.15,25.8153,20.0003,1.24233e-08,NaN,3.10583e-09,NaN,""
-3603.4,25.8034,20.0002,5.27284e-08,NaN,1.31821e-08,NaN,""
-3559.68,25.7702,20,-1.68208e-07,NaN,-4.2052e-08,NaN,""
-3539.52,25.7549,19.9999,4.7817e-07,NaN,1.19542e-07,NaN,""
-3527.57,25.7462,19.9999,2.85853e-07,NaN,7.14632e-08,NaN,""
-3515.62,25.7428,19.9998,9.35359e-08,NaN,2.3384e-08,NaN,""
-3485.99,25.7344,19.9997,1.85187e-07,NaN,4.62967e-08,NaN,""
-3456.35,25.726,19.9997,2.76838e-07,NaN,6.92095e-08,NaN,""
-3430.78,25.7188,19.9997,-3.04549e-07,NaN,-7.61372e-08,NaN,""
-3404.41,25.7113,19.9998,1.9591e-07,NaN,4.89776e-08,NaN,""
-3352.85,25.6967,19.9998,-2.96213e-07,NaN,-7.40533e-08,NaN,""
-3317.28,25.6866,19.9998,-3.8186e-07,NaN,-9.54651e-08,NaN,""
-3281.34,25.6764,19.9997,-1.53613e-07,NaN,-3.84032e-08,NaN,""
-3268.28,25.8449,19.9997,-7.06966e-08,NaN,-1.76742e-08,NaN,""
-3222.96,25.827,19.9996,2.17165e-07,NaN,5.42912e-08,NaN,""
-3197.88,25.792,19.9999,1.88783e-07,NaN,4.71957e-08,NaN,""
-3183.35,25.7567,20,1.49833e-07,NaN,3.74584e-08,NaN,""
-3158.26,25.7512,20.0001,-1.23886e-08,NaN,-3.09714e-09,NaN,""
-3150.83,25.7496,20.0001,-5.26528e-07,NaN,-1.31632e-07,NaN,""
-3141.03,25.7474,20.0001,-1.04087e-08,NaN,-2.60218e-09,NaN,""
-3130.72,25.7452,20.0001,-3.94674e-07,NaN,-9.86686e-08,NaN,""
-3113.09,25.7413,20.0001,4.16888e-07,NaN,1.04222e-07,NaN,""
-3100.28,25.7385,20.0001,-6.16178e-08,NaN,-1.54045e-08,NaN,""
-3095.35,25.7374,20.0001,4.26885e-07,NaN,1.06721e-07,NaN,""
-3086.78,25.7355,20.0001,-1.80791e-07,NaN,-4.51977e-08,NaN,""
-3001.19,25.7168,20,-7.43569e-08,NaN,-1.85892e-08,NaN,""
-2941.29,25.7029,19.9999,6.13679e-08,NaN,1.5342e-08,NaN,""
-2881.38,25.6876,19.9997,1.97093e-07,NaN,4.92732e-08,NaN,""
-2867,25.684,19.9996,-2.27005e-07,NaN,-5.67512e-08,NaN,""
-2833.43,25.6754,19.9995,-1.64714e-07,NaN,-4.11784e-08,NaN,""
-2813.23,25.7289,19.9996,-4.25021e-07,NaN,-1.06255e-07,NaN,""
-2791.27,25.7877,19.9996,-8.73069e-07,NaN,-2.18267e-07,NaN,""
-2776.41,25.8275,19.9996,-3.49189e-07,NaN,-8.72973e-08,NaN,""
-2771.19,25.8414,19.9997,-9.39561e-07,NaN,-2.3489e-07,NaN,""
-2763.32,25.8519,19.9997,-7.02244e-07,NaN,-1.75561e-07,NaN,""
-2755.46,25.8123,19.9997,-4.64927e-07,NaN,-1.16232e-07,NaN,""
-2730.93,25.6887,19.9998,-1.05956e-06,NaN,-2.6489e-07,NaN,""
-2712.7,25.6861,19.9998,-7.68798e-07,NaN,-1.922e-07,NaN,""
-2689.34,25.7026,19.9998,-3.96316e-07,NaN,-9.90789e-08,NaN,""
-2665.99,25.7191,19.9996,-4.89997e-07,NaN,-1.22499e-07,NaN,""
-2652.55,25.7285,19.9995,-4.97688e-07,NaN,-1.24422e-07,NaN,""
-2639.77,25.7376,19.9995,-2.96189e-07,NaN,-7.40473e-08,NaN,""
-2626.99,25.7466,19.9995,-3.26969e-07,NaN,-8.17422e-08,NaN,""
-2622.28,25.7499,19.9996,-4.76491e-07,NaN,-1.19123e-07,NaN,""
-2608.3,25.7598,19.9997,-1.17085e-07,NaN,-2.92714e-08,NaN,""
-2599.28,25.7662,19.9997,-7.67502e-07,NaN,-1.91875e-07,NaN,""
-2586.38,25.7753,19.9998,-3.64304e-07,NaN,-9.10761e-08,NaN,""
-2574.18,25.7585,19.9999,-2.2188e-08,NaN,-5.547e-09,NaN,""
-2556.47,25.7341,20,-4.64092e-07,NaN,-1.16023e-07,NaN,""
-2541.46,25.7135,20.0001,-1.16186e-07,NaN,-2.90466e-08,NaN,""
-2526.44,25.6928,20,2.31719e-07,NaN,5.79297e-08,NaN,""
-2515.15,25.6772,20,-2.94655e-08,NaN,-7.36637e-09,NaN,""
-2505.32,25.6996,19.9999,-1.31447e-07,NaN,-3.28619e-08,NaN,""
-2500.6,25.7104,19.9999,1.62859e-07,NaN,4.07149e-08,NaN,""
-2484.96,25.746,19.9998,-1.24838e-07,NaN,-3.12095e-08,NaN,""
-2470.18,25.7796,19.9998,2.59277e-07,NaN,6.48192e-08,NaN,""
-2462.27,25.7976,19.9998,2.05385e-07,NaN,5.13464e-08,NaN,""
-2445.71,25.7721,19.9999,1.17268e-08,NaN,2.93171e-09,NaN,""
-2432.46,25.7059,19.9999,-1.94766e-07,NaN,-4.86916e-08,NaN,""
-2424.21,25.6842,19.9999,-4.10477e-07,NaN,-1.02619e-07,NaN,""
-2415.97,25.6864,20,-3.23751e-07,NaN,-8.09377e-08,NaN,""
-2406.6,25.689,20,2.25735e-07,NaN,5.64337e-08,NaN,""
-2391.19,25.6933,20.0001,4.30361e-08,NaN,1.0759e-08,NaN,""
-2381.28,25.696,20.0001,2.62261e-07,NaN,6.55653e-08,NaN,""
-2290.92,25.721,19.9998,NaN,NaN,NaN,NaN,""
-2220.8,25.7403,20,NaN,NaN,NaN,NaN,""
-2178.82,25.7519,19.9997,NaN,NaN,NaN,NaN,""
-2176.48,25.7526,19.9997,NaN,NaN,NaN,NaN,""
-2120.93,25.723,20,NaN,NaN,NaN,NaN,""
-2059.74,25.6905,19.9995,NaN,NaN,NaN,NaN,""
-2028.64,25.694,19.9997,NaN,NaN,NaN,NaN,""
-2004.06,25.6967,19.9998,NaN,NaN,NaN,NaN,""
-1830.99,25.716,19.9999,NaN,NaN,NaN,NaN,""
-1829.08,25.7162,19.9999,NaN,NaN,NaN,NaN,""
-1739.64,25.7759,19.9999,NaN,NaN,NaN,NaN,""
-1707.66,25.6803,19.9999,NaN,NaN,NaN,NaN,""
-1668.61,25.7338,19.9998,NaN,NaN,NaN,NaN,""
-1615.68,25.6783,19.9998,NaN,NaN,NaN,NaN,""
-1587.43,25.6487,20.0001,NaN,NaN,NaN,NaN,""
-1569.28,25.7165,20.0003,NaN,NaN,NaN,NaN,""
-1556.32,25.738,20.0001,NaN,NaN,NaN,NaN,""
-1536.79,25.7094,19.9998,NaN,NaN,NaN,NaN,""
-1507.86,25.667,19.9998,NaN,NaN,NaN,NaN,""
-1432.56,25.7584,19.9998,NaN,NaN,NaN,NaN,""
-1364.24,25.7433,19.9998,NaN,NaN,NaN,NaN,""
-1237.15,25.7153,20,NaN,NaN,NaN,NaN,""
-1231.75,25.7153,20,NaN,NaN,NaN,NaN,""
-1156.33,25.7147,19.9995,NaN,NaN,NaN,NaN,""
-1116.21,25.7144,20.0002,NaN,NaN,NaN,NaN,""
-1063.77,25.714,19.9994,NaN,NaN,NaN,NaN,""
-1034.26,25.7339,19.9997,NaN,NaN,NaN,NaN,""
-1004.76,25.7587,19.9999,NaN,NaN,NaN,NaN,""
-947.215,25.8071,19.9999,NaN,NaN,NaN,NaN,""
-906.84,25.7854,19.9999,NaN,NaN,NaN,NaN,""
-866.466,25.7636,20.0003,NaN,NaN,NaN,NaN,""
-839.977,25.7993,20.0003,NaN,NaN,NaN,NaN,""
[...]
367590,25.7677,19.9998,0.00128102,1189.4,0.000320255,297.35,""
371636,25.6698,19.9998,0.00127186,1194.56,0.000317964,298.641,""
376117,25.612,19.9997,0.00126137,1200.24,0.000315343,300.059,""
380199,25.6182,19.9999,0.00125056,1205.36,0.00031264,301.341,""
384097,25.705,19.9999,0.00124089,1210.22,0.000310222,302.555,""
388223,25.7041,20.0004,0.00122996,1215.32,0.000307489,303.83,""
392852,25.7238,20,0.00121706,1220.98,0.000304264,305.246,""
397405,25.7386,20.0002,0.0012049,1226.5,0.000301224,306.625,""
403282,25.6476,19.9996,0.00118885,1233.53,0.000297213,308.383,""
407500,25.6016,19.9998,0.00117687,1238.52,0.000294216,309.63,""
411655,25.7078,19.9996,0.00116448,1243.38,0.00029112,310.846,""
416267,25.5706,19.9999,0.00115066,1248.72,0.000287666,312.181,""
419555,25.4772,20.0001,0.00114056,1252.49,0.00028514,313.123,""
424064,25.5848,19.9997,0.00112721,1257.61,0.000281803,314.401,""
427537,25.5382,19.9999,0.00111685,1261.5,0.000279211,315.376,""
431993,25.6748,20,0.00110259,1266.45,0.000275648,316.612,""
436370,25.578,19.9997,0.00108803,1271.24,0.000272008,317.81,""
440148,25.5559,19.9996,0.00107556,1275.33,0.00026889,318.832,""
443760,25.5728,19.9998,0.00106379,1279.19,0.000265948,319.798,""
447842,25.5721,19.9995,0.0010506,1283.51,0.00026265,320.877,""
451820,25.673,19.9999,0.00103915,1287.66,0.000259788,321.916,""
455179,25.8169,19.9998,0.00102847,1291.13,0.000257118,322.783,""
459371,25.7302,19.9998,0.00101537,1295.41,0.000253843,323.853,""
464158,25.6452,20.0002,0.00100087,1300.24,0.000250217,325.059,""
468011,25.5716,19.9994,0.000988135,1304.07,0.000247034,326.017,""
472105,25.6191,19.9999,0.000975706,1308.09,0.000243926,327.022,""
476282,25.6552,20,0.000963401,1312.14,0.00024085,328.035,""
481075,25.6875,19.9995,0.00094945,1316.73,0.000237362,329.181,""
486371,25.6897,20.0001,0.000934239,1321.71,0.00023356,330.428,""
490638,25.7372,19.9996,0.000921214,1325.67,0.000230303,331.418,""
495155,25.5547,19.9999,0.000907398,1329.8,0.000226849,332.451,""
501034,25.6012,20.0004,0.000890688,1335.09,0.000222672,333.773,""
504565,26.328,19.9998,0.000880653,1338.22,0.000220163,334.555,""
508380,26.4373,19.9997,0.000869873,1341.56,0.000217468,335.389,""
512379,26.4207,19.9997,0.00085744,1345.01,0.00021436,336.253,""
516692,26.4245,19.9998,0.000844704,1348.68,0.000211176,337.171,""
520768,26.4126,19.9998,0.000832571,1352.1,0.000208143,338.025,""
524505,26.4918,19.9999,0.000822152,1355.19,0.000205538,338.798,""
527924,26.4596,19.9995,0.000811494,1357.98,0.000202873,339.496,""
531389,26.6113,19.9998,0.000802463,1360.78,0.000200616,340.195,""
535472,26.5749,19.9997,0.000791404,1364.03,0.000197851,341.008,""
539653,25.3514,19.9997,0.00077989,1367.32,0.000194972,341.829,""
543361,25.3966,19.9998,0.000769008,1370.19,0.000192252,342.547,""
547954,25.2297,19.9998,0.00075848,1373.7,0.00018962,343.424,""
551850,25.3096,20,0.000749092,1376.63,0.000187273,344.158,""
556631,25.0229,19.9996,0.000736899,1380.18,0.000184225,345.045,""
561300,25.0537,19.9998,0.000726532,1383.6,0.000181633,345.899,""
567963,24.9402,19.9997,0.00071106,1388.39,0.000177765,347.097,""
575517,24.9265,19.9999,0.000694114,1393.7,0.000173529,348.424,""
580304,24.9421,19.9997,0.000684949,1397,0.000171237,349.249,""
585695,25.6434,19.9995,0.000672569,1400.65,0.000168142,350.163,""
590006,25.7099,19.9999,0.000664374,1403.54,0.000166094,350.884,""
594193,25.862,19.9998,0.000655124,1406.3,0.000163781,351.575,""
598102,25.9849,19.9998,0.000646733,1408.84,0.000161683,352.21,""
602196,25.9946,19.9997,0.000637645,1411.47,0.000159411,352.868,""
603094,NaN,NaN,0.000633933,1412.04,0.000158483,353.011,""
603094,NaN,NaN,NaN,NaN,NaN,NaN,"Ampoule removed"